Folder: HUBenchmark/Benchmark/ASCIIdata_splib07b_cvHYPERION/ChapterM_Minerals

Note: Benchmark/ASCIIdata_splib07b_cvHYPERION/ChapterM_Minerals/s07HYPRN_Acmite_NMNH133746_Pyroxene_BECKa_AREF.txt
s07HYPRN Record=29: Acmite NMNH133746 Pyroxene    BECKa AREF
 4.1575573e-002
 4.1591749e-002
 4.1405313e-002
 4.1685678e-002
 4.1975304e-002
 4.2168122e-002
 4.2474005e-002
 4.2744551e-002
 4.2975783e-002
 4.3421965e-002
 4.3885186e-002
 4.4447023e-002
 4.5114651e-002
 4.5583989e-002
 4.6195678e-002
 4.6243038e-002
 4.6639275e-002
 4.6874572e-002
 4.6519302e-002
 4.6322953e-002
 4.5456503e-002
 4.5057766e-002
 4.4729862e-002
 4.4238761e-002
 4.3475062e-002
 4.2838771e-002
 4.2227898e-002
 4.1834664e-002
 4.1243814e-002
 4.0647548e-002
 4.0133964e-002
 4.0028322e-002
 3.9109845e-002
 3.8666338e-002
 3.8275346e-002
 3.7846703e-002
 3.7498802e-002
 3.7041888e-002
 3.7003905e-002
 3.6845557e-002
 3.6606193e-002
 3.6680188e-002
 3.6737874e-002
 3.6678769e-002
 3.6919665e-002
 3.6637235e-002
 3.6481239e-002
 3.6469430e-002
 3.6970023e-002
 3.8365923e-002
 3.6517825e-002
 3.4760855e-002
 3.9052464e-002
 3.9929047e-002
 3.7339866e-002
 3.7567277e-002
 3.6594152e-002
 3.6596984e-002
 3.6063854e-002
 3.6423042e-002
 3.8119536e-002
 3.6461614e-002
 3.5589084e-002
 3.6751945e-002
 3.5949964e-002
 3.5583042e-002
 3.5130955e-002
 3.5907567e-002
 3.6115915e-002
 3.5522740e-002
 3.8128611e-002
 3.7331387e-002
 3.4463495e-002
 3.7977386e-002
 4.0352765e-002
 3.7693635e-002
 3.7750218e-002
 3.6440834e-002
 3.7112646e-002
 3.5677422e-002
 3.6152940e-002
 3.8257997e-002
 3.6834978e-002
 3.5490017e-002
 3.6598437e-002
 3.6312386e-002
 3.5540447e-002
 3.5389390e-002
 3.5281699e-002
 3.6497504e-002
 3.5742328e-002
 3.5644885e-002
 3.5735697e-002
 3.5671156e-002
 3.5395131e-002
 3.6002468e-002
 3.5455797e-002
 3.5422213e-002
 3.5790246e-002
 3.5395853e-002
 3.5282228e-002
 3.4324389e-002
 3.4478165e-002
 3.4211140e-002
 3.5445187e-002
 3.4921966e-002
 3.4805093e-002
 3.4672793e-002
 3.5266809e-002
 3.5368271e-002
 3.5794917e-002
 3.5625856e-002
 3.5268977e-002
 3.6177155e-002
 3.6921617e-002
 3.6822997e-002
 3.6624920e-002
 3.6626108e-002
 3.6807425e-002
 3.6666133e-002
 3.6549371e-002
 3.7629355e-002
 3.7499741e-002
 3.8253840e-002
 3.8600422e-002
 3.9747749e-002
 3.9350361e-002
 3.9218713e-002
 3.9394222e-002
 3.9983377e-002
 4.0482070e-002
 4.0904108e-002
 4.1213892e-002
 3.9913651e-002
 3.9676171e-002
 4.0751316e-002
 4.3366309e-002
 4.5444805e-002
 4.3626450e-002
 4.4255305e-002
 4.4786211e-002
 4.5653284e-002
 4.6560537e-002
 4.5395777e-002
 4.5713939e-002
 4.7143426e-002
 4.6087325e-002
 4.8094038e-002
 4.7647279e-002
 4.9207386e-002
 4.9458262e-002
 4.8486877e-002
 5.0731800e-002
 5.2145466e-002
 5.3708769e-002
 5.2341573e-002
 5.2092321e-002
 5.2505240e-002
 5.4311633e-002
 5.8530249e-002
 5.6055307e-002
 5.6391388e-002
 5.7730667e-002
 5.9291545e-002
 5.7787351e-002
 5.9602208e-002
 5.9842024e-002
 6.0772609e-002
 6.2308043e-002
 6.2733203e-002
 6.3859485e-002
 6.5239802e-002
 6.6602789e-00

Note: Benchmark/ASCIIdata_splib07b_cvHYPERION/ChapterM_Minerals/s07HYPRN_Actinolite_HS22.1B_ASDFRb_AREF.txt
s07HYPRN Record=48: Actinolite HS22.1B           ASDFRb AREF
 3.5568655e-001
 3.7673780e-001
 3.9259169e-001
 4.0644482e-001
 4.1824856e-001
 4.2817560e-001
 4.4073707e-001
 4.5541960e-001
 4.6779990e-001
 4.7489303e-001
 4.8514292e-001
 4.9622878e-001
 5.0793505e-001
 5.1817191e-001
 5.2558517e-001
 5.3292209e-001
 5.3841555e-001
 5.4068273e-001
 5.4168862e-001
 5.4178828e-001
 5.4113013e-001
 5.3911483e-001
 5.3594071e-001
 5.3213418e-001
 5.2841550e-001
 5.2434242e-001
 5.2040714e-001
 5.1697147e-001
 5.1414436e-001
 5.1190716e-001
 5.1010996e-001
 5.0951409e-001
 5.0967515e-001
 5.0943017e-001
 5.1036716e-001
 5.1250356e-001
 5.1509774e-001
 5.1820809e-001
 5.2163047e-001
 5.2551329e-001
 5.3020388e-001
 5.3517354e-001
 5.3993356e-001
 5.4397506e-001
 5.4690528e-001
 5.4872787e-001
 5.4904312e-001
 5.4827237e-001
 5.4662222e-001
 5.4451734e-001
 5.4188222e-001
 5.3895015e-001
 5.3613317e-001
 5.3325224e-001
 5.2974343e-001
 5.2655917e-001
 5.2285814e-001
 5.1892036e-001
 5.1450479e-001
 5.0936943e-001
 5.0443113e-001
 4.9900943e-001
 4.9363741e-001
 4.8890233e-001
 4.8515958e-001
 4.8295069e-001
 4.8296598e-001
 4.8572651e-001
 4.9308908e-001
 5.0279433e-001
 5.4500502e-001
 5.4254514e-001
 5.3965563e-001
 5.3678906e-001
 5.3408128e-001
 5.3065258e-001
 5.2745444e-001
 5.2391785e-001
 5.2011091e-001
 5.1592642e-001
 5.1088184e-001
 5.0605524e-001
 5.0078839e-001
 4.9536711e-001
 4.9038425e-001
 4.8646075e-001
 4.8381934e-001
 4.8253947e-001
 4.8394218e-001
 4.8998570e-001
 4.9879506e-001
 5.0969851e-001
 5.2201986e-001
 5.3442717e-001
 5.4620343e-001
 5.5638188e-001
 5.6556696e-001
 5.7388896e-001
 5.8107680e-001
 5.8712745e-001
 5.9310687e-001
 5.9821850e-001
 6.0357350e-001
 6.0850757e-001
 6.1359358e-001
 6.1842883e-001
 6.2292755e-001
 6.2724984e-001
 6.3191432e-001
 6.3659894e-001
 6.4137667e-001
 6.4588058e-001
 6.5014362e-001
 6.5477091e-001
 6.5821928e-001
 6.6173089e-001
 6.6544855e-001
 6.6930968e-001
 6.7302233e-001
 6.7671525e-001
 6.7993671e-001
 6.8278497e-001
 6.8414694e-001
 6.7163700e-001
 6.5259910e-001
 6.7850965e-001
 6.9113910e-001
 6.9656116e-001
 6.9989741e-001
 7.0209068e-001
 7.0527136e-001
 7.0725578e-001
 7.0981801e-001
 7.1168011e-001
 7.1422362e-001
 7.1584606e-001
 7.1784371e-001
 7.1968728e-001
 7.2160786e-001
 7.2360271e-001
 7.2536564e-001
 7.2658259e-001
 7.2783083e-001
 7.2939706e-001
 7.3036313e-001
 7.3183340e-001
 7.3228413e-001
 7.3342812e-001
 7.3477346e-001
 7.3489082e-001
 7.3618037e-001
 7.3646921e-001
 7.3606378e-001
 7.3667425e-001
 7.3748440e-001
 7.3700100e-001
 7.3833162e-001
 7.3733586e-001
 7.3624152e-001
 7.3547256e-001
 7.3502725e-001
 7.3486018e-001
 7.3384941e-001
 7.3304754e-001
 7.3239642e-001
 7.3122543e-001
 7.3004621e-001
 7.2851825e-001
 7.2806787e-001
 7.2688556e-001
 7.2536010e-001
 7.2451240e-001
 7.2346854e-00

Note: README.md
# HUBenchmark

## Installation instructions

`Instruction on how to install all the required packages and libraries. The instructions given are for linux environments (specifically Ubuntu) as this was the environment used in development. For other OS'es the steps should be similar.`

`As a prerequisite Matlab needs to be installed on the machine.` 

`For Python installation pipenv virtual environment is used. To install you need pip and pipenv packages for Python.`

Then run (you can specify python version with --python 3.x):

```properties
pipenv install
```

Enter the environment with:

```properties
pipenv shell
```

Then Matlab engine needs to be install into this python environment
(official tutorial https://ch.mathworks.com/help/matlab/matlab_external/install-the-matlab-engine-for-python.html):

write permissions to folders build and dist (inside ../extern/engines/python/ folder) are required to install the pacakge successfully.

```properties
cd /path/to/MATLAB/R202xb/extern/engines/python/
python3 -m pip install .
```

Test the matlab installation with these commands

```properties
python3

import matlab.engine
eng = matlab.engine.start_matlab()
```

## Running benchmark code and algorithm code

`WIP`

File: s07HYPRN_Chalcedony_CU91-6A_XRD_NIC4aa_RREF.txt
s07HYPRN Record=746: Chalcedony CU91-6A XRD       NIC4aa RREF
-1.23e+34
-1.23e+34
-1.23e+34
-1.23e+34
-1.23e+34
-1.23e+34
-1.23e+34
-1.23e+34
-1.23e+34
-1.23e+34
-1.23e+34
-1.23e+34
-1.23e+34
-1.23e+34
-1.23e+34
-1.23e+34
-1.23e+34
-1.23e+34
-1.23e+34
-1.23e+34
-1.23e+34
-1.23e+34
-1.23e+34
-1.23e+34
-1.23e+34
-1.23e+34
-1.23e+34
-1.23e+34
-1.23e+34
-1.23e+34
-1.23e+34
-1.23e+34
-1.23e+34
-1.23e+34
-1.23e+34
-1.23e+34
-1.23e+34
-1.23e+34
-1.23e+34
-1.23e+34
-1.23e+34
-1.23e+34
-1.23e+34
-1.23e+34
-1.23e+34
-1.23e+34
-1.23e+34
-1.23e+34
-1.23e+34
-1.23e+34
-1.23e+34
-1.23e+34
-1.23e+34
-1.23e+34
-1.23e+34
-1.23e+34
-1.23e+34
-1.23e+34
-1.23e+34
-1.23e+34
-1.23e+34
-1.23e+34
-1.23e+34
-1.23e+34
-1.23e+34
-1.23e+34
-1.23e+34
-1.23e+34
-1.23e+34
-1.23e+34
-1.23e+34
-1.23e+34
-1.23e+34
-1.23e+34
-1.23e+34
-1.23e+34
-1.23e+34
-1.23e+34
-1.23e+34
-1.23e+34
-1.23e+34
-1.23e+34
-1.23e+34
-1.23e+34
-1.23e+34
-1.23e+34
-1.23e+34
-1.23e+34
-1.23e+34
-1.23e+34
-1.23e+34
-1.23e+34
-1.23e+34
-1.23e+34
-1.23e+34
-1.23e+34
-1.23e+34
-1.23e+34
-1.23e+34
-1.23e+34
-1.23e+34
-1.23e+34
-1.23e+34
-1.23e+34
-1.23e+34
-1.23e+34
-1.23e+34
-1.23e+34
-1.23e+34
-1.23e+34
-1.23e+34
-1.23e+34
-1.23e+34
-1.23e+34
-1.23e+34
-1.23e+34
-1.23e+34
-1.23e+34
-1.23e+34
-1.23e+34
-1.23e+34
-1.23e+34
-1.23e+34
-1.23e+34
-1.23e+34
-1.23e+34
-1.23e+34
-1.23e+34
-1.23e+34
-1.23e+34
-1.23e+34
-1.23e+34
-1.23e+34
-1.23e+34
-1.23e+34
-1.23e+34
-1.23e+34
-1.23e+34
-1.23e+34
-1.23e+34
-1.23e+34
-1.23e+34
-1.23e+34
-1.23e+34
-1.23e+34
 0.439808
 0.441689
 0.444105
 0.446713
 0.449351
 0.451566
 0.453273
 0.454707
 0.456285
 0.458164
 0.460196
 0.46231
 0.464084
 0.465353
 0.466346
 0.467298
 0.468436
 0.469857
 0.471348
 0.472769
 0.473932
 0.474714
 0.475151
 0.475458
 0.476091
 0.476802
 0.477243
 0.477178
 0.475545
 0.472851
 0.4714
 0.471558
 0.472435
 0.473678
 0.475137
 0.476736
 0.478425
 0.479827
 0.480972
 0.481747
 0.482138
 0.482229
 0.482325
 0.482535
 0.482916
 0.483323
 0.483797
 0.484231
 0.484393
 0.484373
 0.484003
 0.483459
 0.482596
 0.481546
 0.480278
 0.478715
 0.476419
 0.472944
 0.469525
 0.468427
 0.469074
 0.469728
 0.469803
 0.469345
 0.468947
 0.468928
 0.468937
 0.469018
 0.469237
 0.469828
 0.470583
 0.471265
 0.471716
 0.471689
 0.471661
 0.471429
 0.470667
 0.469702
 0.468552
 0.467207
 0.46565
 0.4638
 0.461857
 0.460049
 0.458208
 0.45649
 0.454929
 0.45355
 0.452207
 0.450753
 0.449247
 0.447651
 0.446019
 0.444429
 0.442836
 0.441078
 0.439777